Folder: physics133/vsm/material synthesized /x=0.01

File: modified.dat
temperature,moment,sus
52.239,1.36567e-23,7.32241e+26
52.2386,1.36659e-23,7.31746e+26
52.2389,1.36695e-23,7.31555e+26
57.284,1.28821e-23,7.76269e+26
57.2833,1.28683e-23,7.77105e+26
57.2827,1.28697e-23,7.77017e+26
62.3396,1.23043e-23,8.12727e+26
62.3389,1.23051e-23,8.12669e+26
62.3393,1.23053e-23,8.12656e+26
67.4074,1.18494e-23,8.43923e+26
67.4042,1.18729e-23,8.42253e+26
67.403,1.1878e-23,8.41896e+26
72.4772,1.15173e-23,8.68257e+26
72.4767,1.15136e-23,8.68541e+26
72.4759,1.15093e-23,8.68859e+26
77.5425,1.11924e-23,8.93462e+26
77.5396,1.12001e-23,8.92846e+26
77.5383,1.11951e-23,8.93244e+26
82.6584,1.09375e-23,9.14283e+26
82.64,1.09458e-23,9.13596e+26
82.6241,1.0948e-23,9.13412e+26
87.7195,1.07216e-23,9.32696e+26
87.7007,1.07078e-23,9.33895e+26
87.6827,1.07037e-23,9.34256e+26
92.7882,1.05085e-23,9.51606e+26
92.7759,1.05109e-23,9.51397e+26
92.7595,1.05066e-23,9.51786e+26
97.8301,1.03355e-23,9.67539e+26
97.8216,1.03275e-23,9.68287e+26
97.8077,1.03301e-23,9.68042e+26
102.877,1.01463e-23,9.85577e+26
102.88,1.01498e-23,9.85242e+26
102.873,1.0148e-23,9.85417e+26
107.923,9.99555e-24,1.00045e+27
107.932,9.99752e-24,1.00025e+27
107.929,1.00066e-23,9.99336e+26
112.986,9.84076e-24,1.01618e+27
112.995,9.86086e-24,1.01411e+27
112.991,9.85492e-24,1.01472e+27
118.049,9.7441e-24,1.02626e+27
118.056,9.74721e-24,1.02594e+27
118.048,9.75169e-24,1.02546e+27
123.115,9.64832e-24,1.03645e+27
123.122,9.65434e-24,1.0358e+27
123.114,9.64458e-24,1.03685e+27
128.178,9.51725e-24,1.05072e+27
128.185,9.52852e-24,1.04948e+27
128.175,9.53321e-24,1.04897e+27
133.22,9.46003e-24,1.05708e+27
133.196,9.45256e-24,1.05792e+27
133.173,9.45834e-24,1.05727e+27
138.243,9.3689e-24,1.06736e+27
138.227,9.35929e-24,1.06846e+27
138.205,9.36103e-24,1.06826e+27
143.374,9.28142e-24,1.07742e+27
143.345,9.30268e-24,1.07496e+27
143.315,9.28939e-24,1.0765e+27
148.45,9.25705e-24,1.08026e+27
148.417,9.24993e-24,1.08109e+27
148.385,9.26887e-24,1.07888e+27
153.422,9.17157e-24,1.09033e+27
153.403,9.17016e-24,1.09049e+27
153.378,9.18158e-24,1.08914e+27
158.522,9.10869e-24,1.09785e+27
158.488,9.10806e-24,1.09793e+27
158.458,9.11493e-24,1.0971e+27
163.567,9.05093e-24,1.10486e+27
163.532,9.0752e-24,1.1019e+27
163.501,9.05245e-24,1.10467e+27
168.612,8.94019e-24,1.11854e+27
168.589,8.95202e-24,1.11707e+27
168.556,9.00301e-24,1.11074e+27
173.667,8.8942e-24,1.12433e+27
173.63,8.92618e-24,1.1203e+27
173.598,8.89338e-24,1.12443e+27
178.729,8.86933e-24,1.12748e+27
178.69,8.882e-24,1.12587e+27
178.655,8.86481e-24,1.12806e+27
183.762,8.81829e-24,1.13401e+27
183.737,8.7959e-24,1.13689e+27
183.703,8.79453e-24,1.13707e+27
188.819,8.75909e-24,1.14167e+27
188.78,8.75838e-24,1.14176e+27
188.747,8.75363e-24,1.14238e+27
193.837,8.71104e-24,1.14797e+27
193.804,8.67382e-24,1.15289e+27
193.777,8.73257e-24,1.14514e+27
198.884,8.66059e-24,1.15466e+27
198.852,8.64226e-24,1.15711e+27
198.827,8.66697e-24,1.15381e+27
203.929,8.60307e-24,1.16238e+27
203.898,8.6262e-24,1.15926e+27
203.873,8.63097e-24,1.15862e+27
208.972,8.55887e-24,1.16838e+27
208.943,8.56192e-24,1.16796e+27
208.919,8.57957e-24,1.16556e+27
214.016,8.51009e-24,1.17508e+27
213.989,8.5099e-24,1.1751e+27
213.969,8.51186e-24,1.17483e+27
219.05,8.45753e-24,1.18238e+27
219.03,8.46586e-24,1.18121e+27
219.016,8.46233e-24,1.18171e+27
224.097,8.42149e-24,1.18744e+27
224.078,8.45528e-24,1.18269e+27
224.065,8.416e-24,1.18821e+27
229.096,8.38421e-24,1.19272e+27
229.096,8.39726e-24,1.19087e+27
229.099,8.37854e-24,1.19353e+27
234.05,8.32267e-24,1.20154e+27
234.056,8.3337e-24,1.19995e+27
234.063,8.32779e-24,1.2008e+27
239.059,8.28869e-24,1.20646e+27
239.072,8.28499e-24,1.207e+27
239.078,8.29126e-24,1.20609e+27
244.093,8.24027e-24,1.21355e+27
244.107,8.23259e-24,1.21468e+27
244.117,8.23872e-24,1.21378e+27
249.129,8.20235e-24,1.21916e+27
249.148,8.20374e-24,1.21896e+27
249.159,8.21725e-24,1.21695e+27
254.175,8.15871e-24,1.22568e+27
254.193,8.14984e-24,1.22702e+27
254.206,8.10788e-24,1.23337e+27
259.212,8.11492e-24,1.2323e+27
259.248,8.11046e-24,1.23298e+27
259.274,8.11385e-24,1.23246e+27
264.25,8.07596e-24,1.23824e+27
264.273,8.05281e-24,1.2418e+27
264.291,8.04403e-24,1.24316e+27
269.319,8.04992e-24,1.24225e+27
269.338,8.04483e-24,1.24303e+27
269.354,8.03761e-24,1.24415e+27
274.406,8.03905e-24,1.24393e+27
274.413,8.01707e-24,1.24734e+27
274.425,8.01154e-24,1.2482e+27
279.4,7.97677e-24,1.25364e+27
279.424,7.95538e-24,1.25701e+27
279.445,7.9809e-24,1.25299e+27
284.441,7.93442e-24,1.26033e+27
284.468,7.91353e-24,1.26366e+27
284.489,7.8783e-24,1.26931e+27
289.544,7.92557e-24,1.26174e+27
289.554,7.8861e-24,1.26805e+27
289.568,7.88308e-24,1.26854e+27
294.554,7.84122e-24,1.27531e+27
294.579,7.84108e-24,1.27533e+27
294.6,7.85173e-24,1.27361e+27
299.597,7.82473e-24,1.278e+27
299.623,7.84112e-24,1.27533e+27
299.644,7.76799e-24,1.28733e+27